Folder: XRD_Analysis_Notebook

File: GV008_GSO_Wide.csv
[Measurement conditions]
Sample identification,
Comment - 1,"Configuration=Main Configuration, Owner=User-1, Creation date=6/17/2015 3:36:16 PM"
Comment - 2,"Goniometer=HR HD (Theta/2Theta); Minimum step size 2Theta:0.0001; Minimum step size Omega:0.0001"
Comment - 3,"Sample stage=MRD Cradle; Minimum step size Phi:0.01; Minimum step size Chi:0.01; Minimum step size X:0.01; Minimum step size Y:0.01; Minimum step size Z:0.001"
Comment - 4,"Diffractometer system=XPERT-3"
Comment - 5,"Measurement program=C:\PANalytical\Data Collector\Programs\Velarde\2theta-omega 15to55_33 min.xrdmp, Identifier={D54B214C-4725-4EA5-8A69-2F42546C41BB}"
Anode material,Cu
K-Alpha1 wavelength,1.5406
K-Alpha2 wavelength,1.54443
Ratio K-Alpha2/K-Alpha1,0.500
Divergence slit,Fixed,0.76mm
Receiving slit,0.38
Monochromator used,YES
Generator voltage, 45
Tube current, 40
File date and time,12/Oct/2016 10:33
Unit cell,
h k l, 0 0 0
Scan axis,2Theta-Omega
Scan range,15.00000,55.00000
Scan step size,0.0100000
Omega offset,0.1513
No. of points, 4000
Scan type,CONTINUOUS
Phi,0.00
Psi,0.97
X,0.00
Y,0.00
Z,8.310
Time per step,0.440
[Scan points]
Angle,Intensity
15.00500,37.0
15.14500,50.0
15.28500,47.0
15.42500,51.0
15.56500,54.0
15.70500,42.0
15.84500,46.0
15.98500,50.0
16.12500,49.0
16.26500,42.0
16.40500,41.0
16.54500,68.0
16.68500,39.0
16.82500,49.0
16.96500,60.0
17.10500,57.0
17.24500,55.0
17.38500,51.0
17.52500,51.0
17.66500,40.0
17.80500,42.0
17.94500,50.0
18.08500,54.0
18.22500,53.0
18.36500,64.0
18.50500,53.0
18.64500,48.0
18.78500,50.0
18.92500,52.0
19.06500,57.0
19.20500,57.0
19.34500,55.0
19.48500,49.0
19.62500,63.0
19.76500,61.0
19.90500,48.0
20.04500,77.0
20.18500,55.0
20.32500,104.0
20.46500,66.0
20.60500,155.0
20.74500,124.0
20.88500,361.0
21.02500,409.0
21.16500,1385.0
21.30500,3565.0
21.44500,18471.0
21.58500,2534.0
21.72500,115.0
21.86500,326.0
22.00500,450.0
22.14500,77.0
22.28500,721.0
22.42500,13712.0
22.56500,240.0
22.70500,151.0
22.84500,47.0
22.98500,66.0
23.12500,30.0
23.26500,51.0
23.40500,35.0
23.54500,35.0
23.68500,27.0
23.82500,34.0
23.96500,31.0
24.10500,27.0
24.24500,31.0
24.38500,21.0
24.52500,30.0
24.66500,33.0
24.80500,28.0
24.94500,24.0
25.08500,26.0
25.22500,38.0
25.36500,32.0
25.50500,29.0
25.64500,33.0
25.78500,25.0
25.92500,32.0
26.06500,29.0
26.20500,30.0
26.34500,28.0
26.48500,20.0
26.62500,27.0
26.76500,23.0
26.90500,29.0
27.04500,29.0
27.18500,23.0
27.32500,18.0
27.46500,21.0
27.60500,26.0
27.74500,30.0
27.88500,20.0
28.02500,22.0
28.16500,23.0
28.30500,22.0
28.44500,21.0
28.58500,24.0
28.72500,15.0
28.86500,13.0
29.00500,13.0
29.14500,19.0
29.28500,25.0
29.42500,20.0
29.56500,24.0
29.70500,23.0
29.84500,21.0
29.98500,23.0
30.12500,25.0
30.26500,14.0
30.40500,30.0
30.54500,16.0
30.68500,20.0
30.82500,17.0
30.96500,19.0
31.10500,24.0
31.24500,27.0
31.38500,20.0
31.52500,18.0
31.66500,15.0
31.80500,20.0
31.94500,19.0
32.08500,24.0
32.22500,13.0
32.36500,21.0
32.50500,14.0
32.64500,17.0
32.78500,23.0
32.92500,20.0
33.06500,20.0
33.20500,11.0
33.34500,16.0
33.48500,25.0
33.62500,15.0
33.76500,17.0
33.90500,18.0
34.04500,15.0
34.18500,11.0
34.32500,17.0
34.46500,24.0
34.60500,15.0
34.74500,22.0
34.88500,16.0
35.02500,19.0
35.16500,21.0
35.30500,12.0
35.44500,23.0
35.58500,17.0
35.72500,15.0
35.86500,18.0
36.00500,16.0
36.14500,15.0
36.28500,24.0
36.42500,12.0
36.56500,14.0
36.70500,20.0
36.84500,8.0
36.98500,11.0
37.12500,11.0
37.26500,16.0
37.40500,8.0
37.54500,16.0
37.68500,16.0
37.82500,20.0
37.96500,14.0
38.10500,17.0
38.24500,10.0
38.38500,15.0
38.52500,17.0
38.66500,19.0
38.80500,20.0
38.94500,16.0
39.08500,12.0
39.22500,15.0
39.36500,11.0
39.50500,18.0
39.64500,15.0
39.78500,20.0
39.92500,18.0
40.06500,12.0
40.20500,16.0
40.34500,22.0
40.48500,22.0
40.62500,23.0
40.76500,17.0
40.90500,20.0
41.04500,26.0
41.18500,23.0
41.32500,21.0
41.46500,27.0
41.60500,33.0
41.74500,27.0
41.88500,28.0
42.02500,51.0
42.16500,48.0
42.30500,63.0
42.44500,51.0
42.58500,95.0
42.72500,89.0
42.86500,200.0
43.00500,235.0
43.14500,484.0
43.28500,720.0
43.42500,1870.0
43.56500,3091.0
43.70500,6524.0
43.84500,9908.0
43.98500,2743.0
44.12500,491.0
44.26500,204.0
44.40500,609.0
44.54500,324.0
44.68500,2500.0
44.82500,6273.0
44.96500,4563.0
45.10500,1114.0
45.24500,722.0
45.38500,408.0
45.52500,508.0
45.66500,6874.0
45.80500,1184.0
45.94500,100.0
46.08500,100.0
46.22500,31.0
46.36500,30.0
46.50500,16.0
46.64500,22.0
46.78500,16.0
46.92500,18.0
47.06500,12.0
47.20500,13.0
47.34500,16.0
47.48500,10.0
47.62500,25.0
47.76500,7.0
47.90500,13.0
48.04500,21.0
48.18500,10.0
48.32500,14.0
48.46500,8.0
48.60500,14.0
48.74500,12.0
48.88500,8.0
49.02500,12.0
49.16500,5.0
49.30500,13.0
49.44500,12.0
49.58500,9.0
49.72500,16.0
49.86500,10.0
50.00500,12.0
50.14500,11.0
50.28500,9.0
50.42500,12.0
50.56500,13.0
50.70500,11.0
50.84500,18.0
50.98500,6.0
51.12500,7.0
51.26500,11.0
51.40500,15.0
51.54500,12.0
51.68500,10.0
51.82500,12.0
51.96500,9.0
52.10500,8.0
52.24500,10.0
52.38500,9.0
52.52500,12.0
52.66500,10.0
52.80500,10.0
52.94500,12.0
53.08500,5.0
53.22500,14.0
53.36500,14.0
53.50500,12.0
53.64500,11.0
53.78500,9.0
53.92500,10.0
54.06500,14.0
54.20500,13.0
54.34500,11.0
54.48500,12.0
54.62500,11.0
54.76500,14.0
54.90500,18.0
54.99500,7.0